"trial_name","trial_number","key_pressed","correctness","RT","b","n","question","picture","picture_number","degree","key1","key2","expected","correct","QUD","response_checked","startDate","startTime","age","gender","education","languages","comments","endTime","timeSpent","experiment_id",
"key_press_2A","1","b","correct","4879","same","different","Are the objects same or different?","images/12_50_same.jpg","46","50","b","n","same","same","","false","Thu May 16 2019 11:27:01 GMT+0200 (Mitteleuropäische Sommerzeit)","1557998821671","","","","","","1557999104216","4.709083333333333","INSERT_A_NUMBER",
"key_press_2A","2","n","incorrect","5717","same","different","Are the objects same or different?","images/5_150_same.jpg","20","150","b","n","same","same","","false","Thu May 16 2019 11:27:01 GMT+0200 (Mitteleuropäische Sommerzeit)","1557998821671","","","","","","1557999104216","4.709083333333333","INSERT_A_NUMBER",
"key_press_2A","3","n","correct","6590","same","different","Are the objects same or different?","images/14_150_different.jpg","55","150","b","n","different","different","","false","Thu May 16 2019 11:27:01 GMT+0200 (Mitteleuropäische Sommerzeit)","1557998821671","","","","","","1557999104216","4.709083333333333","INSERT_A_NUMBER",
"key_press_2A","4","n","correct","4415","same","different","Are the objects same or different?","images/12_50_different.jpg","45","50","b","n","different","different","","false","Thu May 16 2019 11:27:01 GMT+0200 (Mitteleuropäische Sommerzeit)","1557998821671","","","","","","1557999104216","4.709083333333333","INSERT_A_NUMBER",
"key_press_2A","5","n","correct","3424","same","different","Are the objects same or different?","images/9_50_different.jpg","33","50","b","n","different","different","","false","Thu May 16 2019 11:27:01 GMT+0200 (Mitteleuropäische Sommerzeit)","1557998821671","","","","","","1557999104216","4.709083333333333","INSERT_A_NUMBER",
"key_press_2A","6","b","correct","3608","same","different","Are the objects same or different?","images/2_150_same.jpg","8","150","b","n","same","same","","false","Thu May 16 2019 11:27:01 GMT+0200 (Mitteleuropäische Sommerzeit)","1557998821671","","","","","","1557999104216","4.709083333333333","INSERT_A_NUMBER",
"key_press_2A","7","b","correct","2943","same","different","Are the objects same or different?","images/2_50_same.jpg","6","50","b","n","same","same","","false","Thu May 16 2019 11:27:01 GMT+0200 (Mitteleuropäische Sommerzeit)","1557998821671","","","","","","1557999104216","4.709083333333333","INSERT_A_NUMBER",
"key_press_2A","8","n","correct","2951","same","different","Are the objects same or different?","images/8_50_different.jpg","29","50","b","n","different","different","","false","Thu May 16 2019 11:27:01 GMT+0200 (Mitteleuropäische Sommerzeit)","1557998821671","","","","","","1557999104216","4.709083333333333","INSERT_A_NUMBER",
"key_press_2A","9","n","correct","2960","same","different","Are the objects same or different?","images/2_50_different.jpg","5","50","b","n","different","different","","false","Thu May 16 2019 11:27:01 GMT+0200 (Mitteleuropäische Sommerzeit)","1557998821671","","","","","","1557999104216","4.709083333333333","INSERT_A_NUMBER",
"key_press_2A","10","n","incorrect","6385","same","different","Are the objects same or different?","images/15_150_same.jpg","60","150","b","n","same","same","","false","Thu May 16 2019 11:27:01 GMT+0200 (Mitteleuropäische Sommerzeit)","1557998821671","","","","","","1557999104216","4.709083333333333","INSERT_A_NUMBER",
"key_press_2A","11","n","correct","4023","same","different","Are the objects same or different?","images/3_50_different.jpg","9","50","b","n","different","different","","false","Thu May 16 2019 11:27:01 GMT+0200 (Mitteleuropäische Sommerzeit)","1557998821671","","","","","","1557999104216","4.709083333333333","INSERT_A_NUMBER",
"key_press_2A","12","b","correct","4151","same","different","Are the objects same or different?","images/12_150_same.jpg","48","150","b","n","same","same","","false","Thu May 16 2019 11:27:01 GMT+0200 (Mitteleuropäische Sommerzeit)","1557998821671","","","","","","1557999104216","4.709083333333333","INSERT_A_NUMBER",
"key_press_2A","1","b","correct","4273","same","different","Are the objects same or different?","images/12_50_same.jpg","46","50","b","n","same","same","","true","Thu May 16 2019 11:27:01 GMT+0200 (Mitteleuropäische Sommerzeit)","1557998821671","","","","","","1557999104216","4.709083333333333","INSERT_A_NUMBER",
"key_press_2A","2","b","correct","4355","same","different","Are the objects same or different?","images/5_150_same.jpg","20","150","b","n","same","same","","true","Thu May 16 2019 11:27:01 GMT+0200 (Mitteleuropäische Sommerzeit)","1557998821671","","","","","","1557999104216","4.709083333333333","INSERT_A_NUMBER",
"key_press_2A","3","n","correct","4062","same","different","Are the objects same or different?","images/14_150_different.jpg","55","150","b","n","different","different","","true","Thu May 16 2019 11:27:01 GMT+0200 (Mitteleuropäische Sommerzeit)","1557998821671","","","","","","1557999104216","4.709083333333333","INSERT_A_NUMBER",
"key_press_2A","4","n","correct","4478","same","different","Are the objects same or different?","images/12_50_different.jpg","45","50","b","n","different","different","","true","Thu May 16 2019 11:27:01 GMT+0200 (Mitteleuropäische Sommerzeit)","1557998821671","","","","","","1557999104216","4.709083333333333","INSERT_A_NUMBER",
"key_press_2A","5","n","correct","6305","same","different","Are the objects same or different?","images/9_50_different.jpg","33","50","b","n","different","different","","true","Thu May 16 2019 11:27:01 GMT+0200 (Mitteleuropäische Sommerzeit)","1557998821671","","","","","","1557999104216","4.709083333333333","INSERT_A_NUMBER",
"key_press_2A","6","b","correct","4537","same","different","Are the objects same or different?","images/2_150_same.jpg","8","150","b","n","same","same","","true","Thu May 16 2019 11:27:01 GMT+0200 (Mitteleuropäische Sommerzeit)","1557998821671","","","","","","1557999104216","4.709083333333333","INSERT_A_NUMBER",
"key_press_2A","7","b","correct","3392","same","different","Are the objects same or different?","images/2_50_same.jpg","6","50","b","n","same","same","","true","Thu May 16 2019 11:27:01 GMT+0200 (Mitteleuropäische Sommerzeit)","1557998821671","","","","","","1557999104216","4.709083333333333","INSERT_A_NUMBER",
"key_press_2A","8","n","correct","3420","same","different","Are the objects same or different?","images/8_50_different.jpg","29","50","b","n","different","different","","true","Thu May 16 2019 11:27:01 GMT+0200 (Mitteleuropäische Sommerzeit)","1557998821671","","","","","","1557999104216","4.709083333333333","INSERT_A_NUMBER",
"key_press_2A","9","n","correct","3960","same","different","Are the objects same or different?","images/2_50_different.jpg","5","50","b","n","different","different","","true","Thu May 16 2019 11:27:01 GMT+0200 (Mitteleuropäische Sommerzeit)","1557998821671","","","","","","1557999104216","4.709083333333333","INSERT_A_NUMBER",
"key_press_2A","10","n","incorrect","8267","same","different","Are the objects same or different?","images/15_150_same.jpg","60","150","b","n","same","same","","true","Thu May 16 2019 11:27:01 GMT+0200 (Mitteleuropäische Sommerzeit)","1557998821671","","","","","","1557999104216","4.709083333333333","INSERT_A_NUMBER",
"key_press_2A","11","n","correct","4872","same","different","Are the objects same or different?","images/3_50_different.jpg","9","50","b","n","different","different","","true","Thu May 16 2019 11:27:01 GMT+0200 (Mitteleuropäische Sommerzeit)","1557998821671","","","","","","1557999104216","4.709083333333333","INSERT_A_NUMBER",
"key_press_2A","12","n","incorrect","4633","same","different","Are the objects same or different?","images/12_150_same.jpg","48","150","b","n","same","same","","true","Thu May 16 2019 11:27:01 GMT+0200 (Mitteleuropäische Sommerzeit)","1557998821671","","","","","","1557999104216","4.709083333333333","INSERT_A_NUMBER",
"key_press_2A","13","n","correct","4458","same","different","Are the objects same or different?","images/15_150_different.jpg","59","150","b","n","different","different","","NA","Thu May 16 2019 11:27:01 GMT+0200 (Mitteleuropäische Sommerzeit)","1557998821671","","","","","","1557999104216","4.709083333333333","INSERT_A_NUMBER",
"key_press_2A","14","b","correct","4460","same","different","Are the objects same or different?","images/15_50_same.jpg","58","50","b","n","same","same","","NA","Thu May 16 2019 11:27:01 GMT+0200 (Mitteleuropäische Sommerzeit)","1557998821671","","","","","","1557999104216","4.709083333333333","INSERT_A_NUMBER",
"key_press_2A","15","b","correct","4584","same","different","Are the objects same or different?","images/3_50_same.jpg","10","50","b","n","same","same","","NA","Thu May 16 2019 11:27:01 GMT+0200 (Mitteleuropäische Sommerzeit)","1557998821671","","","","","","1557999104216","4.709083333333333","INSERT_A_NUMBER",
"key_press_2A","16","n","correct","4494","same","different","Are the objects same or different?","images/3_150_different.jpg","11","150","b","n","different","different","","NA","Thu May 16 2019 11:27:01 GMT+0200 (Mitteleuropäische Sommerzeit)","1557998821671","","","","","","1557999104216","4.709083333333333","INSERT_A_NUMBER",
"key_press_2A","17","n","correct","6059","same","different","Are the objects same or different?","images/4_150_different.jpg","15","150","b","n","different","different","","NA","Thu May 16 2019 11:27:01 GMT+0200 (Mitteleuropäische Sommerzeit)","1557998821671","","","","","","1557999104216","4.709083333333333","INSERT_A_NUMBER",
"key_press_2A","18","n","correct","4662","same","different","Are the objects same or different?","images/11_50_different.jpg","41","50","b","n","different","different","","NA","Thu May 16 2019 11:27:01 GMT+0200 (Mitteleuropäische Sommerzeit)","1557998821671","","","","","","1557999104216","4.709083333333333","INSERT_A_NUMBER",
"key_press_2A","19","n","correct","4333","same","different","Are the objects same or different?","images/14_50_different.jpg","53","50","b","n","different","different","","NA","Thu May 16 2019 11:27:01 GMT+0200 (Mitteleuropäische Sommerzeit)","1557998821671","","","","","","1557999104216","4.709083333333333","INSERT_A_NUMBER",
"key_press_2A","20","n","incorrect","3802","same","different","Are the objects same or different?","images/4_150_same.jpg","16","150","b","n","same","same","","NA","Thu May 16 2019 11:27:01 GMT+0200 (Mitteleuropäische Sommerzeit)","1557998821671","","","","","","1557999104216","4.709083333333333","INSERT_A_NUMBER",
"key_press_2A","21","b","correct","4010","same","different","Are the objects same or different?","images/5_50_same.jpg","18","50","b","n","same","same","","NA","Thu May 16 2019 11:27:01 GMT+0200 (Mitteleuropäische Sommerzeit)","1557998821671","","","","","","1557999104216","4.709083333333333","INSERT_A_NUMBER",
"key_press_2A","22","n","correct","6157","same","different","Are the objects same or different?","images/10_50_different.jpg","37","50","b","n","different","different","","NA","Thu May 16 2019 11:27:01 GMT+0200 (Mitteleuropäische Sommerzeit)","1557998821671","","","","","","1557999104216","4.709083333333333","INSERT_A_NUMBER",
"key_press_2A","23","n","correct","5001","same","different","Are the objects same or different?","images/7_150_different.jpg","27","150","b","n","different","different","","NA","Thu May 16 2019 11:27:01 GMT+0200 (Mitteleuropäische Sommerzeit)","1557998821671","","","","","","1557999104216","4.709083333333333","INSERT_A_NUMBER",
"key_press_2A","24","b","correct","4671","same","different","Are the objects same or different?","images/6_150_same.jpg","24","150","b","n","same","same","","NA","Thu May 16 2019 11:27:01 GMT+0200 (Mitteleuropäische Sommerzeit)","1557998821671","","","","","","1557999104216","4.709083333333333","INSERT_A_NUMBER",
"key_press_2A","25","n","correct","6339","same","different","Are the objects same or different?","images/5_50_different.jpg","17","50","b","n","different","different","","NA","Thu May 16 2019 11:27:01 GMT+0200 (Mitteleuropäische Sommerzeit)","1557998821671","","","","","","1557999104216","4.709083333333333","INSERT_A_NUMBER",
"key_press_2A","26","b","correct","3975","same","different","Are the objects same or different?","images/6_50_same.jpg","22","50","b","n","same","same","","NA","Thu May 16 2019 11:27:01 GMT+0200 (Mitteleuropäische Sommerzeit)","1557998821671","","","","","","1557999104216","4.709083333333333","INSERT_A_NUMBER",
"key_press_2A","27","n","correct","4924","same","different","Are the objects same or different?","images/4_50_different.jpg","13","50","b","n","different","different","","NA","Thu May 16 2019 11:27:01 GMT+0200 (Mitteleuropäische Sommerzeit)","1557998821671","","","","","","1557999104216","4.709083333333333","INSERT_A_NUMBER",
"key_press_2A","28","b","correct","4058","same","different","Are the objects same or different?","images/14_150_same.jpg","56","150","b","n","same","same","","NA","Thu May 16 2019 11:27:01 GMT+0200 (Mitteleuropäische Sommerzeit)","1557998821671","","","","","","1557999104216","4.709083333333333","INSERT_A_NUMBER",
"key_press_2A","29","n","correct","3915","same","different","Are the objects same or different?","images/13_150_different.jpg","51","150","b","n","different","different","","NA","Thu May 16 2019 11:27:01 GMT+0200 (Mitteleuropäische Sommerzeit)","1557998821671","","","","","","1557999104216","4.709083333333333","INSERT_A_NUMBER",
"key_press_2A","30","b","correct","2824","same","different","Are the objects same or different?","images/1_150_same.jpg","4","150","b","n","same","same","","NA","Thu May 16 2019 11:27:01 GMT+0200 (Mitteleuropäische Sommerzeit)","1557998821671","","","","","","1557999104216","4.709083333333333","INSERT_A_NUMBER",
"key_press_2A","31","b","correct","3039","same","different","Are the objects same or different?","images/13_50_same.jpg","50","50","b","n","same","same","","NA","Thu May 16 2019 11:27:01 GMT+0200 (Mitteleuropäische Sommerzeit)","1557998821671","","","","","","1557999104216","4.709083333333333","INSERT_A_NUMBER",
"key_press_2A","32","n","correct","2800","same","different","Are the objects same or different?","images/1_50_different.jpg","1","50","b","n","different","different","","NA","Thu May 16 2019 11:27:01 GMT+0200 (Mitteleuropäische Sommerzeit)","1557998821671","","","","","","1557999104216","4.709083333333333","INSERT_A_NUMBER",
"key_press_2A","33","n","incorrect","5714","same","different","Are the objects same or different?","images/7_50_same.jpg","26","50","b","n","same","same","","NA","Thu May 16 2019 11:27:01 GMT+0200 (Mitteleuropäische Sommerzeit)","1557998821671","","","","","","1557999104216","4.709083333333333","INSERT_A_NUMBER",
"key_press_2A","34","b","correct","4707","same","different","Are the objects same or different?","images/13_150_same.jpg","52","150","b","n","same","same","","NA","Thu May 16 2019 11:27:01 GMT+0200 (Mitteleuropäische Sommerzeit)","1557998821671","","","","","","1557999104216","4.709083333333333","INSERT_A_NUMBER",
"key_press_2A","35","b","correct","4213","same","different","Are the objects same or different?","images/7_150_same.jpg","28","150","b","n","same","same","","NA","Thu May 16 2019 11:27:01 GMT+0200 (Mitteleuropäische Sommerzeit)","1557998821671","","","","","","1557999104216","4.709083333333333","INSERT_A_NUMBER",
"key_press_2A","36","b","correct","2672","same","different","Are the objects same or different?","images/14_50_same.jpg","54","50","b","n","same","same","","NA","Thu May 16 2019 11:27:01 GMT+0200 (Mitteleuropäische Sommerzeit)","1557998821671","","","","","","1557999104216","4.709083333333333","INSERT_A_NUMBER",
"key_press_2A","37","n","correct","5266","same","different","Are the objects same or different?","images/1_150_different.jpg","3","150","b","n","different","different","","NA","Thu May 16 2019 11:27:01 GMT+0200 (Mitteleuropäische Sommerzeit)","1557998821671","","","","","","1557999104216","4.709083333333333","INSERT_A_NUMBER",
"key_press_2A","38","n","correct","4703","same","different","Are the objects same or different?","images/12_150_different.jpg","47","150","b","n","different","different","","NA","Thu May 16 2019 11:27:01 GMT+0200 (Mitteleuropäische Sommerzeit)","1557998821671","","","","","","1557999104216","4.709083333333333","INSERT_A_NUMBER",
"key_press_2A","39","b","incorrect","5773","same","different","Are the objects same or different?","images/6_150_different.jpg","23","150","b","n","different","different","","NA","Thu May 16 2019 11:27:01 GMT+0200 (Mitteleuropäische Sommerzeit)","1557998821671","","","","","","1557999104216","4.709083333333333","INSERT_A_NUMBER",
"key_press_2A","40","b","correct","4196","same","different","Are the objects same or different?","images/9_50_same.jpg","34","50","b","n","same","same","","NA","Thu May 16 2019 11:27:01 GMT+0200 (Mitteleuropäische Sommerzeit)","1557998821671","","","","","","1557999104216","4.709083333333333","INSERT_A_NUMBER",
"key_press_2A","41","b","correct","3593","same","different","Are the objects same or different?","images/10_50_same.jpg","38","50","b","n","same","same","","NA","Thu May 16 2019 11:27:01 GMT+0200 (Mitteleuropäische Sommerzeit)","1557998821671","","","","","","1557999104216","4.709083333333333","INSERT_A_NUMBER",
"key_press_2A","42","b","correct","4425","same","different","Are the objects same or different?","images/9_150_same.jpg","36","150","b","n","same","same","","NA","Thu May 16 2019 11:27:01 GMT+0200 (Mitteleuropäische Sommerzeit)","1557998821671","","","","","","1557999104216","4.709083333333333","INSERT_A_NUMBER",
"key_press_2A","43","b","correct","3985","same","different","Are the objects same or different?","images/8_50_same.jpg","30","50","b","n","same","same","","NA","Thu May 16 2019 11:27:01 GMT+0200 (Mitteleuropäische Sommerzeit)","1557998821671","","","","","","1557999104216","4.709083333333333","INSERT_A_NUMBER",
"key_press_2A","44","n","correct","4055","same","different","Are the objects same or different?","images/10_150_different.jpg","39","150","b","n","different","different","","NA","Thu May 16 2019 11:27:01 GMT+0200 (Mitteleuropäische Sommerzeit)","1557998821671","","","","","","1557999104216","4.709083333333333","INSERT_A_NUMBER",
"key_press_2A","45","b","correct","5191","same","different","Are the objects same or different?","images/8_150_same.jpg","32","150","b","n","same","same","","NA","Thu May 16 2019 11:27:01 GMT+0200 (Mitteleuropäische Sommerzeit)","1557998821671","","","","","","1557999104216","4.709083333333333","INSERT_A_NUMBER",
"key_press_2A","46","n","incorrect","4352","same","different","Are the objects same or different?","images/3_150_same.jpg","12","150","b","n","same","same","","NA","Thu May 16 2019 11:27:01 GMT+0200 (Mitteleuropäische Sommerzeit)","1557998821671","","","","","","1557999104216","4.709083333333333","INSERT_A_NUMBER",
"key_press_2A","47","b","correct","3578","same","different","Are the objects same or different?","images/11_150_same.jpg","44","150","b","n","same","same","","NA","Thu May 16 2019 11:27:01 GMT+0200 (Mitteleuropäische Sommerzeit)","1557998821671","","","","","","1557999104216","4.709083333333333","INSERT_A_NUMBER",
"key_press_2A","48","n","correct","3398","same","different","Are the objects same or different?","images/7_50_different.jpg","25","50","b","n","different","different","","NA","Thu May 16 2019 11:27:01 GMT+0200 (Mitteleuropäische Sommerzeit)","1557998821671","","","","","","1557999104216","4.709083333333333","INSERT_A_NUMBER",
